{
	"resourceType": "Bundle",
	"type": "batch",
	"entry": [{
			"fullUrl": "http://hackathon.dev.aidbox.io/fhir/Patient/pt-mother-lindsey-ferrell",
			"request": {
				"method": "PUT",
				"url": "/Patient/pt-mother-lindsey-ferrell"
			},
			"resource": {
				"resourceType": "Patient",
				"id": "pt-mother-lindsey-ferrell",
				"link": [{
						"other": {
							"reference": "RelatedPerson/rp-mother-lindsey-ferrell-to-daughter"
						},
						"type": "seealso"
					}, {
						"other": {
							"reference": "RelatedPerson/rp-mother-lindsey-ferrell-to-son"
						},
						"type": "seealso"
					}, {
						"other": {
							"reference": "RelatedPerson/rp-mother-lindsey-ferrell-to-spouse"
						},
						"type": "seealso"
					}
				],
				"text": {
					"status": "generated",
					"div": "<div xmlns=\"http://www.w3.org/1999/xhtml\"><p><b>Patient Lindsey Ferrell</b></p></div>"
				},
				"name": [{
						"use": "usual",
						"text": "Lindsey Ferrell",
						"given": [
							"Lindsey"
						],
						"family": [
							"Ferrell"
						]
					}
				],
				"gender": "female",
				"birthDate": "1972-09-20",
				"maritalStatus": {
					"text": "Married",
					"coding": [{
							"code": "M",
							"system": "http://hl7.org/fhir/v3/MaritalStatus",
							"display": "Married"
						}
					]
				},
				"address": [{
						"use": "home",
						"city": "Garden Grove",
						"line": [
							"P.O. Box 179, 4529 Nascetur Avenue"
						],
						"state": "TN",
						"district": "Forest County",
						"postalCode": "86049"
					}
				],
				"active": true,
				"communication": [{
						"language": {
							"coding": [{
									"code": "en",
									"system": "urn:ietf:bcp:47"
								}
							]
						},
						"preferred": true
					}
				],
				"identifier": [{
						"use": "usual",
						"type": {
							"coding": [{
									"code": "SS",
									"system": "http://hl7.org/fhir/v2/0203"
								}
							]
						},
						"value": "000000257",
						"system": "http://hl7.org/fhir/sid/us-ssn"
					}
				],
				"telecom": [{
						"use": "mobile",
						"rank": 1,
						"value": "122.108.2548",
						"system": "phone"
					}, {
						"rank": 1,
						"value": "eu.lacus.Quisque@dolorsit.edu",
						"system": "email"
					}
				],
				"contact": [{
						"organization": {
							"display": "Malesuada Id Erat PC"
						},
						"relationship": [{
								"text": "Employer / School",
								"coding": [{
										"code": "e",
										"system": "http://hl7.org/fhir/v2/0131",
										"display": "Employer"
									}
								]
							}
						]
					}
				]
			}

		}, {
			"fullUrl": "http://hackathon.dev.aidbox.io/fhir/Patient/pt-father-mario-ferrell",
			"request": {
				"method": "PUT",
				"url": "/Patient/pt-father-mario-ferrell"
			},
			"resource": {
				"resourceType": "Patient",
				"id": "pt-father-mario-ferrell",
				"link": [{
						"other": {
							"reference": "RelatedPerson/rp-father-mario-ferrell-to-spouse"
						},
						"type": "seealso"
					}
				],
				"text": {
					"status": "generated",
					"div": "<div xmlns=\"http://www.w3.org/1999/xhtml\"><p><b>Patient Mario Ferrell</b></p></div>"
				},
				"name": [{
						"use": "usual",
						"text": "Mario Ferrell",
						"given": [
							"Mario"
						],
						"family": [
							"Ferrell"
						]
					}
				],
				"gender": "male",
				"birthDate": "1974-04-02",
				"maritalStatus": {
					"text": "Married",
					"coding": [{
							"code": "M",
							"system": "http://hl7.org/fhir/v3/MaritalStatus",
							"display": "Married"
						}
					]
				},
				"address": [{
						"use": "home",
						"city": "Garden Grove",
						"line": [
							"P.O. Box 179, 4529 Nascetur Avenue"
						],
						"state": "TN",
						"district": "Forest County",
						"postalCode": "86049"
					}
				],
				"active": true,
				"communication": [{
						"language": {
							"coding": [{
									"code": "en",
									"system": "urn:ietf:bcp:47"
								}
							]
						},
						"preferred": true
					}
				],
				"identifier": [{
						"use": "usual",
						"type": {
							"coding": [{
									"code": "SS",
									"system": "http://hl7.org/fhir/v2/0203"
								}
							]
						},
						"value": "000000818",
						"system": "http://hl7.org/fhir/sid/us-ssn"
					}
				],
				"telecom": [{
						"use": "mobile",
						"rank": 1,
						"value": "122.108.2548",
						"system": "phone"
					}, {
						"rank": 1,
						"value": "purus@bibendum.org",
						"system": "email"
					}
				],
				"contact": [{
						"organization": {
							"display": "Sem Pellentesque Ltd"
						},
						"relationship": [{
								"text": "Employer / School",
								"coding": [{
										"code": "e",
										"system": "http://hl7.org/fhir/v2/0131",
										"display": "Employer"
									}
								]
							}
						]
					}
				]
			}

		}, {
			"fullUrl": "http://hackathon.dev.aidbox.io/fhir/Patient/pt-son-james-ferrell",
			"request": {
				"method": "PUT",
				"url": "/Patient/pt-son-james-ferrell"
			},
			"resource": {
				"resourceType": "Patient",
				"id": "pt-son-james-ferrell",
				"link": [{
						"other": {
							"reference": "RelatedPerson/rp-son-james-ferrell-to-mother"
						},
						"type": "seealso"
					}
				],
				"text": {
					"status": "generated",
					"div": "<div xmlns=\"http://www.w3.org/1999/xhtml\"><p><b>Patient James Ferrell</b></p></div>"
				},
				"name": [{
						"use": "usual",
						"text": "James Ferrell",
						"given": [
							"James"
						],
						"family": [
							"Ferrell"
						]
					}
				],
				"gender": "male",
				"birthDate": "2000-09-14",
				"maritalStatus": {
					"text": "Never Married",
					"coding": [{
							"code": "S",
							"system": "http://hl7.org/fhir/v3/MaritalStatus",
							"display": "Never Married"
						}
					]
				},
				"address": [{
						"use": "home",
						"city": "Garden Grove",
						"line": [
							"P.O. Box 179, 4529 Nascetur Avenue"
						],
						"state": "TN",
						"district": "Forest County",
						"postalCode": "86049"
					}
				],
				"active": true,
				"communication": [{
						"language": {
							"coding": [{
									"code": "en",
									"system": "urn:ietf:bcp:47"
								}
							]
						},
						"preferred": true
					}
				],
				"identifier": [{
						"use": "usual",
						"type": {
							"coding": [{
									"code": "SS",
									"system": "http://hl7.org/fhir/v2/0203"
								}
							]
						},
						"value": "000000724",
						"system": "http://hl7.org/fhir/sid/us-ssn"
					}
				],
				"telecom": [{
						"use": "mobile",
						"rank": 1,
						"value": "122.108.2548",
						"system": "phone"
					}, {
						"rank": 1,
						"value": "consectetuer@etmagnisdis.ca",
						"system": "email"
					}
				],
				"contact": [{
						"organization": {
							"display": "School #698"
						},
						"relationship": [{
								"text": "Employer / School",
								"coding": [{
										"code": "e",
										"system": "http://hl7.org/fhir/v2/0131",
										"display": "Employer"
									}
								]
							}
						]
					}
				]
			}

		}, {
			"fullUrl": "http://hackathon.dev.aidbox.io/fhir/Patient/pt-daughter-miranda-ferrell",
			"request": {
				"method": "PUT",
				"url": "/Patient/pt-daughter-miranda-ferrell"
			},
			"resource": {
				"resourceType": "Patient",
				"id": "pt-daughter-miranda-ferrell",
				"link": [{
						"other": {
							"reference": "RelatedPerson/rp-daughter-miranda-ferrell-to-mother"
						},
						"type": "seealso"
					}
				],
				"text": {
					"status": "generated",
					"div": "<div xmlns=\"http://www.w3.org/1999/xhtml\"><p><b>Patient Miranda Ferrell</b></p></div>"
				},
				"name": [{
						"use": "usual",
						"text": "Miranda Ferrell",
						"given": [
							"Miranda"
						],
						"family": [
							"Ferrell"
						]
					}
				],
				"gender": "female",
				"birthDate": "2009-12-17",
				"address": [{
						"use": "home",
						"city": "Garden Grove",
						"line": [
							"P.O. Box 179, 4529 Nascetur Avenue"
						],
						"state": "TN",
						"district": "Forest County",
						"postalCode": "86049"
					}
				],
				"active": true
			}

		}, {
			"fullUrl": "http://hackathon.dev.aidbox.io/fhir/RelatedPerson/rp-daughter-miranda-ferrell-to-mother",
			"request": {
				"method": "PUT",
				"url": "/RelatedPerson/rp-daughter-miranda-ferrell-to-mother"
			},
			"resource": {
				"resourceType": "RelatedPerson",
				"id": "rp-daughter-miranda-ferrell-to-mother",
				"patient": {
					"reference": "Patient/pt-mother-lindsey-ferrell"
				},
				"name": [{
						"use": "usual",
						"text": "Miranda Ferrell",
						"given": [
							"Miranda"
						],
						"family": [
							"Ferrell"
						]
					}
				],
				"gender": "female",
				"birthDate": "2009-12-17",
				"relationship": {
					"coding": [{
							"code": "DAUC"
						}
					],
					"text": "daughter"
				}
			}

		}, {
			"fullUrl": "http://hackathon.dev.aidbox.io/fhir/RelatedPerson/rp-father-mario-ferrell-to-spouse",
			"request": {
				"method": "PUT",
				"url": "/RelatedPerson/rp-father-mario-ferrell-to-spouse"
			},
			"resource": {
				"resourceType": "RelatedPerson",
				"id": "rp-father-mario-ferrell-to-spouse",
				"patient": {
					"reference": "Patient/pt-mother-lindsey-ferrell"
				},
				"name": [{
						"use": "usual",
						"text": "Mario Ferrell",
						"given": [
							"Mario"
						],
						"family": [
							"Ferrell"
						]
					}
				],
				"gender": "male",
				"birthDate": "1974-04-02",
				"relationship": {
					"coding": [{
							"code": "SPS"
						}
					],
					"text": "spouse"
				}
			}

		}, {
			"fullUrl": "http://hackathon.dev.aidbox.io/fhir/RelatedPerson/rp-mother-lindsey-ferrell-to-daughter",
			"request": {
				"method": "PUT",
				"url": "/RelatedPerson/rp-mother-lindsey-ferrell-to-daughter"
			},
			"resource": {
				"resourceType": "RelatedPerson",
				"id": "rp-mother-lindsey-ferrell-to-daughter",
				"patient": {
					"reference": "Patient/pt-daughter-miranda-ferrell"
				},
				"name": [{
						"use": "usual",
						"text": "Lindsey Ferrell",
						"given": [
							"Lindsey"
						],
						"family": [
							"Ferrell"
						]
					}
				],
				"birthDate": "1972-09-20",
				"relationship": {
					"coding": [{
							"code": "MTH"
						}
					],
					"text": "mother"
				}
			}
		}, {
			"fullUrl": "http://hackathon.dev.aidbox.io/fhir/RelatedPerson/rp-mother-lindsey-ferrell-to-son",
			"request": {
				"method": "PUT",
				"url": "/RelatedPerson/rp-mother-lindsey-ferrell-to-son"
			},
			"resource": {
				"resourceType": "RelatedPerson",
				"id": "rp-mother-lindsey-ferrell-to-son",
				"patient": {
					"reference": "Patient/pt-son-james-ferrell"
				},
				"name": [{
						"use": "usual",
						"text": "Lindsey Ferrell",
						"given": [
							"Lindsey"
						],
						"family": [
							"Ferrell"
						]
					}
				],
				"birthDate": "1972-09-20",
				"relationship": {
					"coding": [{
							"code": "MTH"
						}
					],
					"text": "mother"
				}
			}
		}, {
			"fullUrl": "http://hackathon.dev.aidbox.io/fhir/RelatedPerson/rp-mother-lindsey-ferrell-to-spouse",
			"request": {
				"method": "PUT",
				"url": "/RelatedPerson/rp-mother-lindsey-ferrell-to-spouse"
			},
			"resource": {
				"resourceType": "RelatedPerson",
				"id": "rp-mother-lindsey-ferrell-to-spouse",
				"patient": {
					"reference": "Patient/pt-father-mario-ferrell"
				},
				"name": [{
						"use": "usual",
						"text": "Lindsey Ferrell",
						"given": [
							"Lindsey"
						],
						"family": [
							"Ferrell"
						]
					}
				],
				"birthDate": "1972-09-20",
				"relationship": {
					"coding": [{
							"code": "SPS"
						}
					],
					"text": "spouse"
				}
			}
		}, {
			"fullUrl": "http://hackathon.dev.aidbox.io/fhir/RelatedPerson/rp-son-james-ferrell-to-mother",
			"request": {
				"method": "PUT",
				"url": "/RelatedPerson/rp-son-james-ferrell-to-mother"
			},
			"resource": {
				"resourceType": "RelatedPerson",
				"id": "rp-son-james-ferrell-to-mother",
				"patient": {
					"reference": "Patient/pt-mother-lindsey-ferrell"
				},
				"name": [{
						"use": "usual",
						"text": "James Ferrell",
						"given": [
							"James"
						],
						"family": [
							"Ferrell"
						]
					}
				],
				"gender": "male",
				"birthDate": "2000-09-14",
				"relationship": {
					"coding": [{
							"code": "SONC"
						}
					],
					"text": "son"
				}
			}

		}

	]
}
