{
	"resourceType": "Bundle",
	"type": "batch",
	"entry": [{
			"fullUrl": "http://hackathon.dev.aidbox.io/fhir/Practitioner/pr-loffarelli",
			"request": {
				"method": "PUT",
				"url": "/Practitioner/pr-loffarelli"
			},
			"resource": {
				"resourceType": "Practitioner",
				"id": "pr-loffarelli",
				"name": [{
						"use": "official",
						"given": [
							"JOHN",
							"J"
						],
						"family": [
							"LOFFARELLI"
						],
						"prefix": [
							"DR.",
							"DO"
						]
					}
				],
				"role": [{
						"identifier": [{
								"system": "us-license",
								"value": "2767568395-21"
							}
						],
						"specialty": [{
								"coding": [{
										"system": "http://nucc.org/provider-taxonomy",
										"code": "207R00000X",
										"display": "Internal Medicine"
									}
								]
							}
						]
					}, {
						"identifier": [{
								"system": "us-license",
								"value": "8209036418"
							}
						],
						"specialty": [{
								"coding": [{
										"system": "http://nucc.org/provider-taxonomy",
										"code": "208M00000X",
										"display": "Hospitalist"
									}
								]
							}
						]
					}
				],
				"address": [{
						"use": "work",
						"city": "WENATCHEE",
						"country": "US",
						"line": [
							"896 N CHELAN AVE"
						],
						"state": "WA",
						"postalCode": "486242205"
					}
				],
				"identifier": [{
						"system": "http://hl7.org/fhir/sid/us-npi",
						"type": {
							"text": "Provider number",
							"coding": [{
									"code": "PRN",
									"display": "Provider number"
								}
							]
						},
						"value": "6843207719"
					}
				],
				"telecom": [{
						"system": "phone",
						"use": "work",
						"value": "1588428050"
					}, {
						"system": "phone",
						"use": "mailing",
						"value": "8242558619"
					}
				],
				"gender": "male"
			}
		}, {
			"fullUrl": "http://hackathon.dev.aidbox.io/fhir/Practitioner/pr-cooper",
			"request": {
				"method": "PUT",
				"url": "/Practitioner/pr-cooper"
			},
			"resource": {
				"resourceType": "Practitioner",
				"id": "pr-cooper",
				"name": [{
						"use": "official",
						"text": "DR. CONSTANCE COOPER, M.D.",
						"given": [
							"CONSTANCE",
							"D"
						],
						"family": [
							"COOPER"
						],
						"prefix": [
							"DR.",
							"M.D."
						]
					}
				],
				"role": [{
						"identifier": [{
								"system": "us-license",
								"value": "K4302963845"
							}
						],
						"specialty": [{
								"coding": [{
										"system": "http://nucc.org/provider-taxonomy",
										"code": "207V00000X",
										"display": "Obstetrics & Gynecology"
									}
								]
							}
						]
					}, {
						"identifier": [{
								"system": "us-license",
								"value": "1817796613"
							}
						],
						"specialty": [{
								"coding": [{
										"system": "http://nucc.org/provider-taxonomy",
										"code": "207V00000X",
										"display": "Obstetrics & Gynecology"
									}
								]
							}
						]
					}, {
						"identifier": [{
								"system": "us-license",
								"value": "6991032937"
							}
						],
						"specialty": [{
								"coding": [{
										"system": "http://nucc.org/provider-taxonomy",
										"code": "207V00000X",
										"display": "Obstetrics & Gynecology"
									}
								]
							}
						]
					}
				],
				"address": [{
						"use": "work",
						"city": "MOBILE",
						"country": "US",
						"line": [
							"324 N BAYOU ST"
						],
						"state": "AL",
						"postalCode": "7007899167"
					}
				],
				"identifier": [{
						"system": "http://hl7.org/fhir/sid/us-npi",
						"type": {
							"text": "Provider number",
							"coding": [{
									"code": "PRN",
									"display": "Provider number"
								}
							]
						},
						"value": "7168071090"
					}
				],
				"telecom": [{
						"system": "phone",
						"use": "work",
						"value": "9479117855"
					}, {
						"system": "phone",
						"use": "mailing",
						"value": "1034579096"
					}, {
						"system": "fax",
						"use": "work",
						"value": "4836363639"
					}
				],
				"gender": "female"
			}
		}, {
			"fullUrl": "http://hackathon.dev.aidbox.io/fhir/Organization/org-jackson-mem-hos",
			"request": {
				"method": "PUT",
				"url": "/Organization/org-jackson-mem-hos"
			},
			"resource": {
				"resourceType": "Organization",
				"id": "org-jackson-mem-hos",
				"name": "JACKSON MEM HOS",
				"type": {
					"coding": [{
							"code": "282N00000X",
							"system": "http://nucc.org/provider-taxonomy",
							"display": "General Acute Care Hospital"
						}
					]
				},
				"address": [{
						"use": "work",
						"city": "MIAMI",
						"country": "US",
						"line": [
							"6788 NW 12TH AVE"
						],
						"state": "FL",
						"postalCode": "2518519390"
					}, {
						"use": "postal",
						"city": "LAKE WORTH",
						"country": "US",
						"line": [
							"61765 OAK MEADOW LN"
						],
						"state": "FL",
						"postalCode": "6115667520"
					}
				],
				"identifier": [{
						"system": "http://hl7.org/fhir/sid/us-npi",
						"type": {
							"text": "Provider number",
							"coding": [{
									"code": "PRN",
									"display": "Provider number"
								}
							]
						},
						"value": "8734708438"
					}
				],
				"telecom": [{
						"system": "phone",
						"use": "work",
						"value": "6786149159"
					}, {
						"system": "phone",
						"use": "mailing",
						"value": "6377869523"
					}
				]
			}
		}, {
			"fullUrl": "http://hackathon.dev.aidbox.io/fhir/MedicationOrder/mo-for-pt-son-james-ferrell-1",
			"request": {
				"method": "PUT",
				"url": "/MedicationOrder/mo-for-pt-son-james-ferrell-1"
			},
			"resource": {
				"resourceType": "MedicationOrder",
				"status": "active",
				"id": "mo-for-pt-son-james-ferrell-1",
				"patient": {
					"reference": "Patient/pt-son-james-ferrell",
					"display": "James Ferrell"
				},
				"medicationCodeableConcept": {
					"text": "Choline 65 MG Oral Tablet",
					"coding": [{
							"code": "245810",
							"system": "http://www.nlm.nih.gov/research/umls/rxnorm",
							"display": "Choline 65 MG Oral Tablet"
						}
					]
				},
				"encounter": {
					"reference": "Encounter/enc-for-pt-son-james-ferrell-1"
				},
				"dateWritten": "2017-06-09T14:50:15.128Z",
				"prescriber": {
					"reference": "Practitioner/pr-loffarelli",
					"display": "DR. JOHN LOFFARELLI"
				},
				"reasonReference": [{
						"reference": "Condition/dx-for-pt-son-james-ferrell-1"
					}
				],
				"dosageInstruction": [{
						"route": {
							"text": "Oral route (qualifier value)",
							"coding": [{
									"code": "26643006",
									"system": "http://snomed.info/sct",
									"display": "Oral route (qualifier value)"
								}
							]
						},
						"timing": {
							"code": {
								"coding": [{
										"code": "q12h"
									}
								]
							}
						},
						"doseQuantity": {
							"code": "428641000",
							"unit": "Capsule - unit of product usage (qualifier value)",
							"value": 5,
							"system": "http://snomed.info/sct"
						}
					}
				]

			}

		}, {
			"fullUrl": "http://hackathon.dev.aidbox.io/fhir/Encounter/enc-for-pt-son-james-ferrell-1",
			"request": {
				"method": "PUT",
				"url": "/Encounter/enc-for-pt-son-james-ferrell-1"
			},
			"resource": {
				"resourceType": "Encounter",
				"id": "enc-for-pt-son-james-ferrell-1",
				"text": {
					"status": "generated",
					"div": "<div xmlns=\"http://www.w3.org/1999/xhtml\"><p><b>Generated Narrative with Details</b></p><p><b>id</b>: f001</p><p><b>identifier</b>: v1451 (OFFICIAL)</p><p><b>status</b>: finished</p><p><b>class</b>: ambulatory (Details: http://hl7.org/fhir/v3/ActCode code AMB = 'ambulatory', stated as 'ambulatory')</p><p><b>type</b>: Patient-initiated encounter <span>(Details : {SNOMED CT code '270427003' = 'Patient-initiated encounter (procedure)', given as 'Patient-initiated encounter'})</span></p><p><b>priority</b>: Non-urgent cardiological admission <span>(Details : {SNOMED CT code '310361003' = 'Non-urgent cardiological admission (procedure)', given as 'Non-urgent cardiological admission'})</span></p><p><b>patient</b>: <a>P. van de Heuvel</a></p><h3>Participants</h3><table><tr><td>-</td><td><b>Individual</b></td></tr><tr><td>*</td><td><a>P. Voigt</a></td></tr></table><p><b>length</b>: 140 min<span> (Details: http://unitsofmeasure.org code min = 'min')</span></p><p><b>reason</b>: Heart valve replacement <span>(Details : {SNOMED CT code '34068001' = 'Heart valve replacement (procedure)', given as 'Heart valve replacement'})</span></p><h3>Hospitalizations</h3><table><tr><td>-</td><td><b>PreAdmissionIdentifier</b></td><td><b>AdmitSource</b></td><td><b>DischargeDisposition</b></td></tr><tr><td>*</td><td>93042 (OFFICIAL)</td><td>Referral by physician <span>(Details : {SNOMED CT code '305956004' = 'Referral by physician (procedure)', given as 'Referral by physician'})</span></td><td>Discharge to home <span>(Details : {SNOMED CT code '306689006' = 'Discharge to home (procedure)', given as 'Discharge to home'})</span></td></tr></table><p><b>serviceProvider</b>: <a>Burgers University Medical Center</a></p></div>"
				},
				"identifier": [{
						"use": "official",
						"system": "http://www.amc.nl/zorgportal/identifiers/visits",
						"value": "v4041152480"
					}
				],
				"status": "finished",
				"class": {
					"system": "http://hl7.org/fhir/v3/ActCode",
					"code": "AMB",
					"display": "ambulatory"
				},
				"type": [{
						"coding": [{
								"system": "http://snomed.info/sct",
								"code": "270427003",
								"display": "Patient-initiated encounter"
							}
						]
					}
				],
				"priority": {
					"coding": [{
							"system": "http://snomed.info/sct",
							"code": "310361003",
							"display": "Non-urgent cardiological admission"
						}
					]
				},
				"patient": {
					"reference": "Patient/pt-son-james-ferrell",
					"display": "James Ferrell"
				},
				"participant": [{
						"individual": {
							"reference": "Practitioner/pr-loffarelli",
							"display": "DR. JOHN LOFFARELLI"
						}
					}
				],
				"length": {
					"value": 140,
					"unit": "min",
					"system": "http://unitsofmeasure.org",
					"code": "min"
				},
				"period": {
					"start": "2017-06-09T13:30:15.128Z",
					"end": "2017-07-22T15:50:08.968Z"
				},
				"reason": [{
						"coding": [{
								"system": "http://snomed.info/sct",
								"code": "34068001",
								"display": "Heart valve replacement"
							}
						]
					}
				],
				"hospitalization": {
					"preAdmissionIdentifier": {
						"use": "official",
						"system": "http://www.amc.nl/zorgportal/identifiers/pre-admissions",
						"value": "2687622751"
					},
					"admitSource": {
						"coding": [{
								"system": "http://snomed.info/sct",
								"code": "305956004",
								"display": "Referral by physician"
							}
						]
					},
					"dischargeDisposition": {
						"coding": [{
								"system": "http://snomed.info/sct",
								"code": "306689006",
								"display": "Discharge to home"
							}
						]
					}
				},
				"serviceProvider": {
					"reference": "Organization/org-jackson-mem-hos",
					"display": "JACKSON MEM HOS"
				}
			}

		}, {
			"fullUrl": "http://hackathon.dev.aidbox.io/fhir/Encounter/enc-for-pt-father-mario-ferrell-1",
			"request": {
				"method": "PUT",
				"url": "/Encounter/enc-for-pt-father-mario-ferrell-1"
			},
			"resource": {
				"resourceType": "Encounter",
				"id": "enc-for-pt-father-mario-ferrell-1",
				"text": {
					"status": "generated",
					"div": "<div xmlns=\"http://www.w3.org/1999/xhtml\"><p><b>Generated Narrative with Details</b></p><p><b>id</b>: f003</p><p><b>identifier</b>: v6751 (OFFICIAL)</p><p><b>status</b>: finished</p><p><b>class</b>: ambulatory (Details: http://hl7.org/fhir/v3/ActCode code AMB = 'ambulatory', stated as 'ambulatory')</p><p><b>type</b>: Patient-initiated encounter <span>(Details : {SNOMED CT code '270427003' = 'Patient-initiated encounter (procedure)', given as 'Patient-initiated encounter'})</span></p><p><b>priority</b>: Non-urgent ear, nose and throat admission <span>(Details : {SNOMED CT code '103391001' = 'Urgency (qualifier value)', given as 'Non-urgent ear, nose and throat admission'})</span></p><p><b>patient</b>: <a>P. van de Heuvel</a></p><h3>Participants</h3><table><tr><td>-</td><td><b>Individual</b></td></tr><tr><td>*</td><td><a>E.M. van den Broek</a></td></tr></table><p><b>length</b>: 90 min<span> (Details: http://unitsofmeasure.org code min = 'min')</span></p><p><b>reason</b>: Retropharyngeal abscess <span>(Details : {SNOMED CT code '18099001' = 'Retropharyngeal abscess', given as 'Retropharyngeal abscess'})</span></p><h3>Hospitalizations</h3><table><tr><td>-</td><td><b>PreAdmissionIdentifier</b></td><td><b>AdmitSource</b></td><td><b>DischargeDisposition</b></td></tr><tr><td>*</td><td>93042 (OFFICIAL)</td><td>Referral by physician <span>(Details : {SNOMED CT code '305956004' = 'Referral by physician (procedure)', given as 'Referral by physician'})</span></td><td>Discharge to home <span>(Details : {SNOMED CT code '306689006' = 'Discharge to home (procedure)', given as 'Discharge to home'})</span></td></tr></table><p><b>serviceProvider</b>: <a>Organization/org-jackson-mem-hos</a></p></div>"
				},
				"identifier": [{
						"use": "official",
						"system": "http://www.bmc.nl/zorgportal/identifiers/encounters",
						"value": "v4811308538"
					}
				],
				"status": "finished",
				"class": {
					"system": "http://hl7.org/fhir/v3/ActCode",
					"code": "AMB",
					"display": "ambulatory"
				},
				"type": [{
						"coding": [{
								"system": "http://snomed.info/sct",
								"code": "270427003",
								"display": "Patient-initiated encounter"
							}
						]
					}
				],
				"priority": {
					"coding": [{
							"system": "http://snomed.info/sct",
							"code": "103391001",
							"display": "Non-urgent ear, nose and throat admission"
						}
					]
				},
				"patient": {
					"reference": "Patient/pt-father-mario-ferrell",
					"display": "Mario Ferrell"
				},
				"participant": [{
						"individual": {
							"reference": "Practitioner/pr-loffarelli",
							"display": "DR. JOHN LOFFARELLI"
						}
					}
				],
				"length": {
					"value": 90,
					"unit": "min",
					"system": "http://unitsofmeasure.org",
					"code": "min"
				},
				"period": {
					"start": "2017-07-22T09:27:07.574Z",
					"end": "2017-07-22T10:57:17.578Z"
				},
				"reason": [{
						"extension": [{
								"url": "http://hl7.org/fhir/StructureDefinition/encounter-primaryDiagnosis",
								"valuePositiveInt": 1
							}
						],
						"coding": [{
								"system": "http://snomed.info/sct",
								"code": "18099001",
								"display": "Retropharyngeal abscess"
							}
						]
					}
				],
				"hospitalization": {
					"preAdmissionIdentifier": {
						"use": "official",
						"system": "http://www.bmc.nl/zorgportal/identifiers/pre-admissions",
						"value": "6424207418"
					},
					"admitSource": {
						"coding": [{
								"system": "http://snomed.info/sct",
								"code": "305956004",
								"display": "Referral by physician"
							}
						]
					},
					"dischargeDisposition": {
						"coding": [{
								"system": "http://snomed.info/sct",
								"code": "306689006",
								"display": "Discharge to home"
							}
						]
					}
				},
				"serviceProvider": {
					"reference": "Organization/org-jackson-mem-hos",
					"display": "JACKSON MEM HOS"
				}
			}

		}, {
			"fullUrl": "http://hackathon.dev.aidbox.io/fhir/Encounter/enc-for-pt-daughter-miranda-ferrell-1",
			"request": {
				"method": "PUT",
				"url": "/Encounter/enc-for-pt-daughter-miranda-ferrell-1"
			},
			"resource": {
				"resourceType": "Encounter",
				"id": "enc-for-pt-daughter-miranda-ferrell-1",
				"text": {
					"status": "generated",
					"div": "<div xmlns=\"http://www.w3.org/1999/xhtml\"><p><b>Generated Narrative with Details</b></p><p><b>id</b>: f203</p><p><b>identifier</b>: Encounter_Roel_20130311 (TEMP)</p><p><b>status</b>: finished</p><h3>StatusHistories</h3><table><tr><td>-</td><td><b>Status</b></td><td><b>Period</b></td></tr><tr><td>*</td><td>arrived</td><td>08/03/2013 --&gt; (ongoing)</td></tr></table><p><b>class</b>: inpatient encounter (Details: http://hl7.org/fhir/v3/ActCode code IMP = 'inpatient encounter', stated as 'inpatient encounter')</p><p><b>type</b>: Inpatient stay for nine days <span>(Details : {SNOMED CT code '183807002' = 'Inpatient stay 9 days (finding)', given as 'Inpatient stay for nine days'})</span></p><p><b>priority</b>: High priority <span>(Details : {SNOMED CT code '394849002' = 'High priority (qualifier value)', given as 'High priority'})</span></p><p><b>patient</b>: <a>Roel</a></p><p><b>episodeOfCare</b>: <a>EpisodeOfCare/example</a></p><p><b>incomingReferral</b>: <a>ReferralRequest/example</a></p><h3>Participants</h3><table><tr><td>-</td><td><b>Type</b></td><td><b>Individual</b></td></tr><tr><td>*</td><td>Participation <span>(Details : {http://hl7.org/fhir/v3/ParticipationType code 'PART' = 'Participation)</span></td><td><a>Practitioner/f201</a></td></tr></table><p><b>appointment</b>: <a>Appointment/example</a></p><p><b>period</b>: 11/03/2013 --&gt; 20/03/2013</p><p><b>reason</b>: The patient seems to suffer from bilateral pneumonia and renal insufficiency, most likely due to chemotherapy. <span>(Details )</span></p><p><b>account</b>: <a>Account/example</a></p><h3>Hospitalizations</h3><table><tr><td>-</td><td><b>Origin</b></td><td><b>AdmitSource</b></td><td><b>AdmittingDiagnosis</b></td><td><b>ReAdmission</b></td><td><b>DietPreference</b></td><td><b>SpecialCourtesy</b></td><td><b>SpecialArrangement</b></td><td><b>Destination</b></td><td><b>DischargeDiagnosis</b></td></tr><tr><td>*</td><td><a>Location/2</a></td><td>Clinical Oncology Department <span>(Details : {SNOMED CT code '309902002' = 'Clinical oncology department (environment)', given as 'Clinical Oncology Department'})</span></td><td><a>Condition/stroke</a></td><td>readmitted <span>(Details : {[not stated] code 'null' = '??', given as 'readmitted'})</span></td><td>Fluid balance regulation <span>(Details : {SNOMED CT code '276026009' = 'Fluid balance regulation (procedure)', given as 'Fluid balance regulation'})</span></td><td>normal courtesy <span>(Details : {http://hl7.org/fhir/v3/EncounterSpecialCourtesy code 'NRM' = 'normal courtesy', given as 'normal courtesy'})</span></td><td>Wheelchair <span>(Details : {http://hl7.org/fhir/encounter-special-arrangements code 'wheel' = 'Wheelchair', given as 'Wheelchair'})</span></td><td><a>Location/2</a></td><td><a>Condition/f201</a></td></tr></table><p><b>serviceProvider</b>: <a>Organization JACKSON MEM HOS</a></p></div>"
				},
				"identifier": [{
						"use": "temp",
						"value": "Encounter_1453596493"
					}
				],
				"status": "finished",
				"statusHistory": [{
						"status": "arrived",
						"period": {
							"start": "2017-05-13"
						}
					}
				],
				"class": {
					"system": "http://hl7.org/fhir/v3/ActCode",
					"code": "IMP",
					"display": "inpatient encounter"
				},
				"type": [{
						"coding": [{
								"system": "http://snomed.info/sct",
								"code": "183807002",
								"display": "Inpatient stay for nine days"
							}
						]
					}
				],
				"priority": {
					"coding": [{
							"system": "http://snomed.info/sct",
							"code": "394849002",
							"display": "High priority"
						}
					]
				},
				"patient": {
					"reference": "Patient/pt-daughter-miranda-ferrell",
					"display": "Miranda Ferrell"
				},
				"participant": [{
						"type": [{
								"coding": [{
										"system": "http://hl7.org/fhir/v3/ParticipationType",
										"code": "PART"
									}
								]
							}
						],
						"individual": {
							"reference": "Practitioner/pr-loffarelli"
						}
					}
				],
				"period": {
					"start": "2017-05-13",
					"end": "2017-05-22"
				},
				"reason": [{
						"text": "The patient seems to suffer from bilateral pneumonia and renal insufficiency, most likely due to chemotherapy."
					}
				],
				"hospitalization": {
					"admitSource": {
						"coding": [{
								"system": "http://snomed.info/sct",
								"code": "309902002",
								"display": "Clinical Oncology Department"
							}
						]
					},
					"admittingDiagnosis": [{
							"reference": "Condition/dx-for-pt-daughter-miranda-ferrell-1"
						}
					],
					"reAdmission": {
						"coding": [{
								"display": "readmitted"
							}
						]
					},
					"dietPreference": [{
							"coding": [{
									"system": "http://snomed.info/sct",
									"code": "276026009",
									"display": "Fluid balance regulation"
								}
							]
						}
					],
					"specialCourtesy": [{
							"coding": [{
									"system": "http://hl7.org/fhir/v3/EncounterSpecialCourtesy",
									"code": "NRM",
									"display": "normal courtesy"
								}
							]
						}
					],
					"specialArrangement": [{
							"coding": [{
									"system": "http://hl7.org/fhir/encounter-special-arrangements",
									"code": "wheel",
									"display": "Wheelchair"
								}
							]
						}
					],
					"dischargeDiagnosis": [{
							"reference": "Condition/dx-for-pt-daughter-miranda-ferrell-2"
						}
					]
				},
				"serviceProvider": {
					"reference": "Organization/org-jackson-mem-hos",
					"display": "JACKSON MEM HOS"
				}
			}

		}, {
			"fullUrl": "http://hackathon.dev.aidbox.io/fhir/Condition/dx-for-pt-son-james-ferrell-1",
			"request": {
				"method": "PUT",
				"url": "/Condition/dx-for-pt-son-james-ferrell-1"
			},
			"resource": {
				"resourceType": "Condition",
				"id": "dx-for-pt-son-james-ferrell-1",
				"subject": {
					"reference": "Patient/pt-son-james-ferrell"
				},
				"category": {
					"coding": [{
							"code": "diagnosis",
							"system": "http://hl7.org/fhir/condition-category",
							"display": "Diagnosis"
						}
					]
				},
				"clinicalStatus": "active",
				"dateRecorded": "2017-06-09T13:55:15.128Z",

				"code": {
					"coding": [{
							"code": "A54.83",
							"system": "http://hl7.org/fhir/sid/icd-10",
							"display": "Gonococcal heart infection"
						}
					]
				},
				"verificationStatus": "confirmed"
			}

		}, {
			"fullUrl": "http://hackathon.dev.aidbox.io/fhir/Condition/dx-for-pt-daughter-miranda-ferrell-2",
			"request": {
				"method": "PUT",
				"url": "/Condition/dx-for-pt-daughter-miranda-ferrell-2"
			},
			"resource": {
				"resourceType": "Condition",
				"id": "dx-for-pt-daughter-miranda-ferrell-2",
				"category": {
					"coding": [{
							"code": "diagnosis",
							"system": "http://hl7.org/fhir/condition-category",
							"display": "Diagnosis"
						}
					]
				},
				"clinicalStatus": "active",
				"dateRecorded": "2017-02-21T14:45:43.876Z",

				"code": {
					"coding": [{
							"code": "C43.5",
							"system": "http://hl7.org/fhir/sid/icd-10",
							"display": "Malignant melanoma of trunk"
						}
					]
				},
				"verificationStatus": "confirmed",
				"subject": {
					"reference": "Patient/pt-daughter-miranda-ferrell"
				}
			}

		}, {
			"fullUrl": "http://hackathon.dev.aidbox.io/fhir/Condition/dx-for-pt-daughter-miranda-ferrell-1",
			"request": {
				"method": "PUT",
				"url": "/Condition/dx-for-pt-daughter-miranda-ferrell-1"
			},
			"resource": {
				"resourceType": "Condition",
				"id": "dx-for-pt-daughter-miranda-ferrell-1",
				"category": {
					"coding": [{
							"code": "diagnosis",
							"system": "http://hl7.org/fhir/condition-category",
							"display": "Diagnosis"
						}
					]
				},
				"clinicalStatus": "active",
				"dateRecorded": "2017-05-13T13:50:49.389Z",

				"code": {
					"coding": [{
							"code": "D70.1",
							"system": "http://hl7.org/fhir/sid/icd-10",
							"display": "Agranulocytosis secondary to cancer chemotherapy"
						}
					]
				},
				"verificationStatus": "confirmed",
				"subject": {
					"reference": "Patient/pt-daughter-miranda-ferrell"
				}
			}

		}, {
			"fullUrl": "http://hackathon.dev.aidbox.io/fhir/Appointment/ap-for-pt-son-james-ferrell-1",
			"request": {
				"method": "PUT",
				"url": "/Appointment/ap-for-pt-son-james-ferrell-1"
			},
			"resource": {
				"resourceType": "Appointment",
				"id": "ap-for-pt-son-james-ferrell-1",
				"text": {
					"status": "generated",
					"div": "<div xmlns=\"http://www.w3.org/1999/xhtml\">EKG</div>"
				},
				"status": "booked",
				"serviceCategory": {
					"coding": [{
							"system": "http://hl7.org/fhir/ValueSet/service-category",
							"code": "27",
							"display": "Specialist Medical"
						}
					]
				},
				"serviceType": [{
						"coding": [{
								"system": "http://hl7.org/fhir/service-type",
								"code": "165",
								"display": "Cardiology"
							}
						]
					}
				],
				"specialty": [{
						"coding": [{
								"system": "http://snomed.info/sct",
								"code": "394579002",
								"display": "Cardiology"
							}
						]
					}
				],
				"appointmentType": {
					"coding": [{
							"system": "http://example.org/appointment-type",
							"code": "follow",
							"display": "Followup"
						}
					]
				},
				"reason": {
					"text": "Electrocardiographic procedure",
					"coding": [{
							"system": "http://snomed.info/sct",
							"code": "29303009",
							"display": "Electrocardiographic procedure"
						}
					]
				},
				"priority": 5,
				"description": "Electrocardiographic procedure",
				"start": "2017-08-30T09:00:00Z",
				"end": "2017-08-30T11:00:00Z",
				"created": "2017-08-01",
				"comment": "Further expand on the results of the EKG and determine the next actions that may be appropriate.",
				"participant": [{
						"actor": {
							"reference": "Patient/pt-son-james-ferrell",
							"display": "James Ferrell"
						},
						"required": "required",
						"status": "accepted"
					}, {
						"type": [{
								"coding": [{
										"system": "http://hl7.org/fhir/v3/ParticipationType",
										"code": "ATND"
									}
								]
							}
						],
						"actor": {
							"reference": "Practitioner/pr-loffarelli",
							"display": "DR. JOHN LOFFARELLI"
						},
						"required": "required",
						"status": "accepted"
					}
				]
			}

		}, {
			"fullUrl": "http://hackathon.dev.aidbox.io/fhir/Appointment/ap-for-pt-mother-lindsey-ferrell-1",
			"request": {
				"method": "PUT",
				"url": "/Appointment/ap-for-pt-mother-lindsey-ferrell-1"
			},
			"resource": {
				"resourceType": "Appointment",
				"id": "ap-for-pt-mother-lindsey-ferrell-1",
				"text": {
					"status": "generated",
					"div": "<div xmlns=\"http://www.w3.org/1999/xhtml\">Routine gynaecologic examination</div>"
				},
				"status": "booked",
				"serviceCategory": {
					"coding": [{
							"system": "http://hl7.org/fhir/ValueSet/service-category",
							"code": "28",
							"display": "Specialist Obstetrics & Gynaecology"
						}
					]
				},
				"serviceType": [{
						"coding": [{
								"system": "http://hl7.org/fhir/service-type",
								"code": "559",
								"display": "Women's Health"
							}
						]
					}
				],
				"specialty": [{
						"coding": [{
								"system": "http://snomed.info/sct",
								"code": "394586005",
								"display": "Gynaecology"
							}
						]
					}
				],
				"appointmentType": {
					"coding": [{
							"system": "http://example.org/appointment-type",
							"code": "routine",
							"display": "Routine appointment"
						}
					]
				},
				"reason": {
					"text": "Routine gynaecologic examination",
					"coding": [{
							"system": "http://snomed.info/sct",
							"code": "702601001",
							"display": "Routine gynaecologic examination"
						}
					]
				},
				"priority": 5,
				"description": "Routine gynaecologic examination",
				"start": "2017-08-25T11:00:00Z",
				"end": "2017-08-25T12:00:00Z",
				"created": "2017-08-01",
				"comment": "Routine gynaecologic examination",
				"participant": [{
						"actor": {
							"reference": "Patient/pt-mother-lindsey-ferrell",
							"display": "Lindsey Ferrell"
						},
						"required": "required",
						"status": "accepted"
					}, {
						"type": [{
								"coding": [{
										"system": "http://hl7.org/fhir/v3/ParticipationType",
										"code": "ATND"
									}
								]
							}
						],
						"actor": {
							"reference": "Practitioner/pr-cooper",
							"display": "DR. CONSTANCE COOPER, M.D."
						},
						"required": "required",
						"status": "accepted"
					}
				]
			}

		}, {
			"fullUrl": "http://hackathon.dev.aidbox.io/fhir/Appointment/ap-for-pt-daughter-miranda-ferrell-1",
			"request": {
				"method": "PUT",
				"url": "/Appointment/ap-for-pt-daughter-miranda-ferrell-1"
			},
			"resource": {
				"resourceType": "Appointment",
				"id": "ap-for-pt-daughter-miranda-ferrell-1",
				"text": {
					"status": "generated",
					"div": "<div xmlns=\"http://www.w3.org/1999/xhtml\">EKG</div>"
				},
				"status": "booked",
				"serviceCategory": {
					"coding": [{
							"system": "http://hl7.org/fhir/ValueSet/service-category",
							"code": "27",
							"display": "Specialist Medical"
						}
					]
				},
				"serviceType": [{
						"coding": [{
								"system": "http://hl7.org/fhir/service-type",
								"code": "175",
								"display": "Medical Oncology"
							}
						]
					}
				],
				"specialty": [{
						"coding": [{
								"system": "http://snomed.info/sct",
								"code": "394592004",
								"display": "Clinical oncology"
							}
						]
					}
				],
				"appointmentType": {
					"coding": [{
							"system": "http://example.org/appointment-type",
							"code": "routine",
							"display": "Routine appointment"
						}
					]
				},
				"reason": {
					"text": "Immunotherapy for cancer",
					"coding": [{
							"system": "http://snomed.info/sct",
							"code": "64644003",
							"display": "Immunotherapy for cancer"
						}
					]
				},
				"priority": 4,
				"description": "Immunotherapy for cancer",
				"start": "2017-08-20T13:00:00Z",
				"end": "2017-08-20T15:00:00Z",
				"created": "2017-08-01",
				"comment": "Immunotherapy for cancer",
				"participant": [{
						"actor": {
							"reference": "Patient/pt-daughter-miranda-ferrell",
							"display": "Miranda Ferrell"
						},
						"required": "required",
						"status": "accepted"
					}, {
						"type": [{
								"coding": [{
										"system": "http://hl7.org/fhir/v3/ParticipationType",
										"code": "ATND"
									}
								]
							}
						],
						"actor": {
							"reference": "Practitioner/pr-loffarelli",
							"display": "DR. JOHN LOFFARELLI"
						},
						"required": "required",
						"status": "accepted"
					}
				]
			}

		}

	]
}
